<?xml version="1.0" encoding="UTF-8"?>

<Bundle xmlns="http://hl7.org/fhir">
  <id value="minimal-enrollment-Bundle"/>
  <type value="transaction"/>
  <entry>
    <fullUrl value="minimal-enrollment-CarePlan"/>
    <resource>
      <CarePlan>
        <id value="minimal-enrollment-CarePlan"/>
        <text>
          <status value="generated"/><div xmlns="http://www.w3.org/1999/xhtml"><a name="CarePlan_minimal-enrollment-CarePlan"> </a><p class="res-header-id"><b>Generated Narrative: CarePlan minimal-enrollment-CarePlan</b></p><a name="minimal-enrollment-CarePlan"> </a><a name="hcminimal-enrollment-CarePlan"> </a><a name="hcminimal-enrollment-CarePlan-en-US"> </a><p><b>status</b>: Draft</p><p><b>intent</b>: Plan</p><p><b>title</b>: CarePlan for Minimal Enrollment</p><p><b>subject</b>: Identifier: <code>http://fhir.nl/fhir/NamingSystem/bsn</code>/111222333</p><p><b>addresses</b>: <a href="Condition-minimal-enrollment-Condition.html">Condition Hartfalen</a></p></div>
        </text>
        <status value="draft"/>
        <intent value="plan"/>
        <title value="CarePlan for Minimal Enrollment"/>
        <subject>
          <identifier>
            <system value="http://fhir.nl/fhir/NamingSystem/bsn"/>
            <value value="111222333"/>
          </identifier>
        </subject>
        <addresses>
          <reference value="Condition/minimal-enrollment-Condition"/>
          <identifier>
            <system value="http://snomed.info/sct"/>
            <value value="195111005"/>
          </identifier>
        </addresses>
      </CarePlan>
    </resource>
    <request>
      <method value="POST"/>
      <url value="CarePlan"/>
    </request>
  </entry>
  <entry>
    <fullUrl value="minimal-enrollment-Condition"/>
    <resource>
      <Condition>
        <id value="minimal-enrollment-Condition"/>
        <meta>
          <profile value="http://nictiz.nl/fhir/StructureDefinition/nl-core-Problem"/>
        </meta>
        <text>
          <status value="generated"/><div xmlns="http://www.w3.org/1999/xhtml"><a name="Condition_minimal-enrollment-Condition"> </a><p class="res-header-id"><b>Generated Narrative: Condition minimal-enrollment-Condition</b></p><a name="minimal-enrollment-Condition"> </a><a name="hcminimal-enrollment-Condition"> </a><a name="hcminimal-enrollment-Condition-en-US"> </a><p><b>category</b>: <span title="Codes:{http://snomed.info/sct 282291009}">Interpretatie van diagnose</span></p><p><b>code</b>: <span title="Codes:{http://snomed.info/sct 195111005}">Hartfalen</span></p><p><b>subject</b>: <a href="Patient-minimal-enrollment-Patient.html">Patient, Jean Jacques van Putten-van der Giessen</a></p><p><b>note</b>: Hier een zinnige tekst over de diagnose Hartfalen</p></div>
        </text>
        <category>
          <coding>
            <system value="http://snomed.info/sct"/>
            <code value="282291009"/>
            <display value="Interpretatie van diagnose"/>
          </coding>
        </category>
        <code>
          <coding>
            <system value="http://snomed.info/sct"/>
            <code value="195111005"/>
            <display value="Hartfalen"/>
          </coding>
        </code>
        <subject>
          <reference value="Patient/minimal-enrollment-Patient"/>
          <type value="Patient"/>
          <display value="Patient, Jean Jacques van Putten-van der Giessen"/>
        </subject>
        <note>
          <text value="Hier een zinnige tekst over de diagnose Hartfalen"/>
        </note>
      </Condition>
    </resource>
    <request>
      <method value="POST"/>
      <url value="Condition"/>
    </request>
  </entry>
  <entry>
    <fullUrl value="minimal-enrollment-Organization-Performer"/>
    <resource>
      <Organization>
        <id value="minimal-enrollment-Organization-Performer"/>
        <meta>
          <profile value="http://nictiz.nl/fhir/StructureDefinition/nl-core-HealthcareProvider-Organization"/>
        </meta>
        <text>
          <status value="generated"/><div xmlns="http://www.w3.org/1999/xhtml"><a name="Organization_minimal-enrollment-Organization-Performer"> </a><p class="res-header-id"><b>Generated Narrative: Organization minimal-enrollment-Organization-Performer</b></p><a name="minimal-enrollment-Organization-Performer"> </a><a name="hcminimal-enrollment-Organization-Performer"> </a><a name="hcminimal-enrollment-Organization-Performer-en-US"> </a><p><b>identifier</b>: Ura/URA-1</p><p><b>type</b>: <span title="Codes:{http://nictiz.nl/fhir/NamingSystem/organization-type V4}">Ziekenhuis</span></p><p><b>name</b>: Zorg bij jou</p></div>
        </text>
        <identifier>
          <system value="http://fhir.nl/fhir/NamingSystem/ura"/>
          <value value="URA-1"/>
        </identifier>
        <type>
          <coding>
            <system value="http://nictiz.nl/fhir/NamingSystem/organization-type"/>
            <code value="V4"/>
            <display value="Ziekenhuis"/>
          </coding>
        </type>
        <name value="Zorg bij jou"/>
      </Organization>
    </resource>
    <request>
      <method value="POST"/>
      <url value="Organization"/>
    </request>
  </entry>
  <entry>
    <fullUrl value="minimal-enrollment-Organization-Requester"/>
    <resource>
      <Organization>
        <id value="minimal-enrollment-Organization-Requester"/>
        <meta>
          <profile value="http://nictiz.nl/fhir/StructureDefinition/nl-core-HealthcareProvider-Organization"/>
        </meta>
        <text>
          <status value="generated"/><div xmlns="http://www.w3.org/1999/xhtml"><a name="Organization_minimal-enrollment-Organization-Requester"> </a><p class="res-header-id"><b>Generated Narrative: Organization minimal-enrollment-Organization-Requester</b></p><a name="minimal-enrollment-Organization-Requester"> </a><a name="hcminimal-enrollment-Organization-Requester"> </a><a name="hcminimal-enrollment-Organization-Requester-en-US"> </a><p><b>identifier</b>: Ura/URA-ziekenhuis-1</p><p><b>name</b>: St. Antonius Ziekenhuis</p></div>
        </text>
        <identifier>
          <system value="http://fhir.nl/fhir/NamingSystem/ura"/>
          <value value="URA-ziekenhuis-1"/>
        </identifier>
        <name value="St. Antonius Ziekenhuis"/>
      </Organization>
    </resource>
    <request>
      <method value="POST"/>
      <url value="Organization"/>
    </request>
  </entry>
  <entry>
    <fullUrl value="minimal-enrollment-Patient"/>
    <resource>
      <Patient>
        <id value="minimal-enrollment-Patient"/>
        <meta>
          <profile value="http://nictiz.nl/fhir/StructureDefinition/nl-core-Patient"/>
        </meta>
        <text>
          <status value="generated"/><div xmlns="http://www.w3.org/1999/xhtml"><a name="Patient_minimal-enrollment-Patient"> </a><p class="res-header-id"><b>Generated Narrative: Patient minimal-enrollment-Patient</b></p><a name="minimal-enrollment-Patient"> </a><a name="hcminimal-enrollment-Patient"> </a><a name="hcminimal-enrollment-Patient-en-US"> </a><p style="border: 1px #661aff solid; background-color: #e6e6ff; padding: 10px;">Jean Jacques van Putten-van der Giessen(official) (no stated gender), DoB: 1974-01-01 ( http://fhir.nl/fhir/NamingSystem/bsn#111222333)</p><hr/><table class="grid"><tr><td style="background-color: #f3f5da" title="Patient contact">Contact:</td><td colspan="3"><ul><li><a href="tel:+31612345678">+31612345678</a></li></ul></td></tr></table></div>
        </text>
        <identifier>
          <system value="http://fhir.nl/fhir/NamingSystem/bsn"/>
          <value value="111222333"/>
        </identifier>
        <name>
          <use value="official"/>
          <text value="Jean Jacques van Putten-van der Giessen"/>
          <family value="van Putten-van der Giessen">
            <extension url="http://hl7.org/fhir/StructureDefinition/humanname-own-prefix">
              <valueString value="van"/>
            </extension>
            <extension url="http://hl7.org/fhir/StructureDefinition/humanname-own-name">
              <valueString value="Putten"/>
            </extension>
            <extension url="http://hl7.org/fhir/StructureDefinition/humanname-partner-prefix">
              <valueString value="van der"/>
            </extension>
            <extension url="http://hl7.org/fhir/StructureDefinition/humanname-partner-name">
              <valueString value="Giessen"/>
            </extension>
          </family>
          <given value="Jean"/>
          <given value="Jacques"/>
        </name>
        <birthDate value="1974-01-01"/>
        <contact>
          <telecom>
            <system value="phone"/>
            <value value="+31612345678"/>
          </telecom>
        </contact>
      </Patient>
    </resource>
    <request>
      <method value="POST"/>
      <url value="Patient"/>
    </request>
  </entry>
  <entry>
    <fullUrl value="minimal-enrollment-Practitioner-HP"/>
    <resource>
      <Practitioner>
        <id value="minimal-enrollment-Practitioner-HP"/>
        <meta>
          <profile value="http://nictiz.nl/fhir/StructureDefinition/nl-core-HealthProfessional-Practitioner"/>
        </meta>
        <text>
          <status value="generated"/><div xmlns="http://www.w3.org/1999/xhtml"><a name="Practitioner_minimal-enrollment-Practitioner-HP"> </a><p class="res-header-id"><b>Generated Narrative: Practitioner minimal-enrollment-Practitioner-HP</b></p><a name="minimal-enrollment-Practitioner-HP"> </a><a name="hcminimal-enrollment-Practitioner-HP"> </a><a name="hcminimal-enrollment-Practitioner-HP-en-US"> </a><p><b>name</b>: H.B. Hoofdbehandelaar(Official)</p><p><b>telecom</b>: <a href="tel:+31688888888">+31688888888</a>, <a href="mailto:hb@icloud.com">hb@icloud.com</a></p></div>
        </text>
        <name>
          <use value="official"/>
          <text value="H.B. Hoofdbehandelaar"/>
          <family value="Hoofdbehandelaar">
            <extension url="http://hl7.org/fhir/StructureDefinition/humanname-own-name">
              <valueString value="Hoofdbehandelaar"/>
            </extension>
          </family>
          <given value="Hendrik Bernard">
            <extension url="http://hl7.org/fhir/StructureDefinition/iso21090-EN-qualifier">
              <valueCode value="IN"/>
            </extension>
          </given>
          <prefix value="Prof."/>
        </name>
        <telecom>
          <system value="phone"/>
          <value value="+31688888888"/>
        </telecom>
        <telecom>
          <system value="email"/>
          <value value="hb@icloud.com"/>
        </telecom>
      </Practitioner>
    </resource>
    <request>
      <method value="POST"/>
      <url value="Practitioner"/>
    </request>
  </entry>
  <entry>
    <fullUrl value="minimal-enrollment-Practitioner-Requester"/>
    <resource>
      <Practitioner>
        <id value="minimal-enrollment-Practitioner-Requester"/>
        <meta>
          <profile value="http://nictiz.nl/fhir/StructureDefinition/nl-core-HealthProfessional-Practitioner"/>
        </meta>
        <text>
          <status value="generated"/><div xmlns="http://www.w3.org/1999/xhtml"><a name="Practitioner_minimal-enrollment-Practitioner-Requester"> </a><p class="res-header-id"><b>Generated Narrative: Practitioner minimal-enrollment-Practitioner-Requester</b></p><a name="minimal-enrollment-Practitioner-Requester"> </a><a name="hcminimal-enrollment-Practitioner-Requester"> </a><a name="hcminimal-enrollment-Practitioner-Requester-en-US"> </a><p><b>name</b>: A. Aanvrager(Official)</p><p><b>telecom</b>: <a href="tel:+31687654321">+31687654321</a>, <a href="mailto:av@icloud.com">av@icloud.com</a></p></div>
        </text>
        <name>
          <use value="official"/>
          <text value="A. Aanvrager"/>
          <family value="Aanvrager">
            <extension url="http://hl7.org/fhir/StructureDefinition/humanname-own-name">
              <valueString value="Aanvrager"/>
            </extension>
          </family>
          <given value="Anton">
            <extension url="http://hl7.org/fhir/StructureDefinition/iso21090-EN-qualifier">
              <valueCode value="IN"/>
            </extension>
          </given>
          <prefix value="Drs."/>
        </name>
        <telecom>
          <system value="phone"/>
          <value value="+31687654321"/>
        </telecom>
        <telecom>
          <system value="email"/>
          <value value="av@icloud.com"/>
        </telecom>
      </Practitioner>
    </resource>
    <request>
      <method value="POST"/>
      <url value="Practitioner"/>
    </request>
  </entry>
  <entry>
    <fullUrl value="minimal-enrollment-ServiceRequest"/>
    <resource>
      <ServiceRequest>
        <id value="minimal-enrollment-ServiceRequest"/>
        <text>
          <status value="generated"/><div xmlns="http://www.w3.org/1999/xhtml"><a name="ServiceRequest_minimal-enrollment-ServiceRequest"> </a><p class="res-header-id"><b>Generated Narrative: ServiceRequest minimal-enrollment-ServiceRequest</b></p><a name="minimal-enrollment-ServiceRequest"> </a><a name="hcminimal-enrollment-ServiceRequest"> </a><a name="hcminimal-enrollment-ServiceRequest-en-US"> </a><p><b>status</b>: Draft</p><p><b>intent</b>: Order</p><p><b>code</b>: <span title="Codes:{http://snomed.info/sct 719858009}">monitoren via telegeneeskunde (regime/therapie)</span></p><p><b>subject</b>: <a href="Patient-minimal-enrollment-Patient.html">Patient, Jean Jacques van Putten-van der Giessen</a></p><p><b>requester</b>: <a href="Organization-minimal-enrollment-Organization-Requester.html">Requester Organization St. Antonius Ziekenhuis</a></p><p><b>performer</b>: <a href="Organization-minimal-enrollment-Organization-Performer.html">Performer Organization Zorg bij jou</a></p><p><b>reasonReference</b>: <a href="Condition-minimal-enrollment-Condition.html">Diagnose Hartfalen</a></p></div>
        </text>
        <status value="draft"/>
        <intent value="order"/>
        <code>
          <coding>
            <system value="http://snomed.info/sct"/>
            <code value="719858009"/>
            <display value="monitoren via telegeneeskunde (regime/therapie)"/>
          </coding>
        </code>
        <subject>
          <reference value="Patient/minimal-enrollment-Patient"/>
          <type value="Patient"/>
          <display value="Patient, Jean Jacques van Putten-van der Giessen"/>
        </subject>
        <requester>
          <reference value="Organization/minimal-enrollment-Organization-Requester"/>
          <type value="Organization"/>
          <display value="Requester Organization St. Antonius Ziekenhuis"/>
        </requester>
        <performer>
          <reference value="Organization/minimal-enrollment-Organization-Performer"/>
          <type value="Organization"/>
          <display value="Performer Organization Zorg bij jou"/>
        </performer>
        <reasonReference>
          <reference value="Condition/minimal-enrollment-Condition"/>
          <display value="Diagnose Hartfalen"/>
        </reasonReference>
      </ServiceRequest>
    </resource>
    <request>
      <method value="POST"/>
      <url value="ServiceRequest"/>
    </request>
  </entry>
  <entry>
    <fullUrl value="minimal-enrollment-Task"/>
    <resource>
      <Task>
        <id value="minimal-enrollment-Task"/>
        <text>
          <status value="generated"/><div xmlns="http://www.w3.org/1999/xhtml"><a name="Task_minimal-enrollment-Task"> </a><p class="res-header-id"><b>Generated Narrative: Task minimal-enrollment-Task</b></p><a name="minimal-enrollment-Task"> </a><a name="hcminimal-enrollment-Task"> </a><a name="hcminimal-enrollment-Task-en-US"> </a><p><b>basedOn</b>: <a href="CarePlan-minimal-enrollment-CarePlan.html">CarePlan CarePlan for Minimal Enrollment</a></p><p><b>status</b>: Requested</p><p><b>intent</b>: order</p><p><b>focus</b>: <a href="ServiceRequest-minimal-enrollment-ServiceRequest.html">ServiceRequest monitoren via telegeneeskunde (regime/therapie)</a></p></div>
        </text>
        <basedOn>
          <reference value="CarePlan/minimal-enrollment-CarePlan"/>
        </basedOn>
        <status value="requested"/>
        <intent value="order"/>
        <focus>
          <reference value="ServiceRequest/minimal-enrollment-ServiceRequest"/>
        </focus>
      </Task>
    </resource>
    <request>
      <method value="POST"/>
      <url value="Task"/>
    </request>
  </entry>
</Bundle>