{
  "resourceType" : "Bundle",
  "id" : "minimal-enrollment-Bundle",
  "type" : "transaction",
  "entry" : [{
    "fullUrl" : "minimal-enrollment-CarePlan",
    "resource" : {
      "resourceType" : "CarePlan",
      "id" : "minimal-enrollment-CarePlan",
      "text" : {
        "status" : "generated",
        "div" : "<div xmlns=\"http://www.w3.org/1999/xhtml\"><a name=\"CarePlan_minimal-enrollment-CarePlan\"> </a><p><b>Generated Narrative: CarePlan </b><a name=\"minimal-enrollment-CarePlan\"> </a><a name=\"hcminimal-enrollment-CarePlan\"> </a></p><div style=\"display: inline-block; background-color: #d9e0e7; padding: 6px; margin: 4px; border: 1px solid #8da1b4; border-radius: 5px; line-height: 60%\"><p style=\"margin-bottom: 0px\">ResourceCarePlan &quot;minimal-enrollment-CarePlan&quot; </p></div><p><b>status</b>: draft</p><p><b>intent</b>: plan</p><p><b>title</b>: CarePlan for Minimal Enrollment</p><p><b>subject</b>: See on this page: Patient/minimal-enrollment-Patient</p><p><b>addresses</b>: See on this page: Condition/minimal-enrollment-Condition</p><h3>Activities</h3><table class=\"grid\"><tr><td style=\"display: none\">-</td><td><b>Reference</b></td></tr><tr><td style=\"display: none\">*</td><td><a href=\"https://simplifier.net/resolve?scope=nictiz.fhir.nl.r4.nl-core@0.10.0-beta.1&amp;canonical=https://simplifier.net/packages/nictiz.fhir.nl.r4.nl-core/mimimal-enrollment-Task\">mimimal-enrollment-Task</a></td></tr></table></div>"
      },
      "status" : "draft",
      "intent" : "plan",
      "title" : "CarePlan for Minimal Enrollment",
      "subject" : {
        "reference" : "Patient/minimal-enrollment-Patient"
      },
      "addresses" : [{
        "reference" : "Condition/minimal-enrollment-Condition"
      }],
      "activity" : [{
        "reference" : {
          "reference" : "mimimal-enrollment-Task"
        }
      }]
    },
    "request" : {
      "method" : "POST",
      "url" : "CarePlan"
    }
  },
  {
    "fullUrl" : "minimal-enrollment-Condition",
    "resource" : {
      "resourceType" : "Condition",
      "id" : "minimal-enrollment-Condition",
      "meta" : {
        "profile" : ["http://nictiz.nl/fhir/StructureDefinition/nl-core-Problem"]
      },
      "text" : {
        "status" : "generated",
        "div" : "<div xmlns=\"http://www.w3.org/1999/xhtml\"><a name=\"Condition_minimal-enrollment-Condition\"> </a><p><b>Generated Narrative: Condition </b><a name=\"minimal-enrollment-Condition\"> </a><a name=\"hcminimal-enrollment-Condition\"> </a></p><div style=\"display: inline-block; background-color: #d9e0e7; padding: 6px; margin: 4px; border: 1px solid #8da1b4; border-radius: 5px; line-height: 60%\"><p style=\"margin-bottom: 0px\">ResourceCondition &quot;minimal-enrollment-Condition&quot; </p><p style=\"margin-bottom: 0px\">Profile: <a href=\"https://simplifier.net/resolve?scope=nictiz.fhir.nl.r4.nl-core@0.10.0-beta.1&amp;canonical=http://nictiz.nl/fhir/StructureDefinition/nl-core-Problem\">nl core Problem</a></p></div><p><b>category</b>: Interpretatie van diagnose <span style=\"background: LightGoldenRodYellow; margin: 4px; border: 1px solid khaki\"> (<a href=\"https://browser.ihtsdotools.org/\">SNOMED CT</a>#282291009)</span></p><p><b>code</b>: Hartfalen <span style=\"background: LightGoldenRodYellow; margin: 4px; border: 1px solid khaki\"> (<a href=\"https://browser.ihtsdotools.org/\">SNOMED CT</a>#195111005)</span></p><p><b>subject</b>: See on this page: Patient/minimal-enrollment-Patient: Patient, Jean Jacques van Putten-van der Giessen</p><p><b>note</b>: Hier een zinnige tekst over de diagnose Hartfalen</p></div>"
      },
      "category" : [{
        "coding" : [{
          "system" : "http://snomed.info/sct",
          "code" : "282291009",
          "display" : "Interpretatie van diagnose"
        }]
      }],
      "code" : {
        "coding" : [{
          "system" : "http://snomed.info/sct",
          "code" : "195111005",
          "display" : "Hartfalen"
        }]
      },
      "subject" : {
        "reference" : "Patient/minimal-enrollment-Patient",
        "type" : "Patient",
        "display" : "Patient, Jean Jacques van Putten-van der Giessen"
      },
      "note" : [{
        "text" : "Hier een zinnige tekst over de diagnose Hartfalen"
      }]
    },
    "request" : {
      "method" : "POST",
      "url" : "Condition"
    }
  },
  {
    "fullUrl" : "minimal-enrollment-Organization-Performer",
    "resource" : {
      "resourceType" : "Organization",
      "id" : "minimal-enrollment-Organization-Performer",
      "meta" : {
        "profile" : ["http://nictiz.nl/fhir/StructureDefinition/nl-core-HealthcareProvider-Organization"]
      },
      "text" : {
        "status" : "generated",
        "div" : "<div xmlns=\"http://www.w3.org/1999/xhtml\"><a name=\"Organization_minimal-enrollment-Organization-Performer\"> </a><p><b>Generated Narrative: Organization </b><a name=\"minimal-enrollment-Organization-Performer\"> </a><a name=\"hcminimal-enrollment-Organization-Performer\"> </a></p><div style=\"display: inline-block; background-color: #d9e0e7; padding: 6px; margin: 4px; border: 1px solid #8da1b4; border-radius: 5px; line-height: 60%\"><p style=\"margin-bottom: 0px\">ResourceOrganization &quot;minimal-enrollment-Organization-Performer&quot; </p><p style=\"margin-bottom: 0px\">Profile: <a href=\"https://simplifier.net/resolve?scope=nictiz.fhir.nl.r4.nl-core@0.10.0-beta.1&amp;canonical=http://nictiz.nl/fhir/StructureDefinition/nl-core-HealthcareProvider-Organization\">nl core HealthcareProvider Organization</a></p></div><p><b>identifier</b>: Ura/URA-1</p><p><b>type</b>: Ziekenhuis <span style=\"background: LightGoldenRodYellow; margin: 4px; border: 1px solid khaki\"> (<a href=\"https://simplifier.net/resolve?scope=nictiz.fhir.nl.r4.zib2020@0.10.0-beta.1&amp;canonical=http://nictiz.nl/fhir/NamingSystem/organization-type\">RoleCodeNL - zorgaanbiedertype (organisaties)</a>#V4)</span></p><p><b>name</b>: Zorg bij jou</p></div>"
      },
      "identifier" : [{
        "system" : "http://fhir.nl/fhir/NamingSystem/ura",
        "value" : "URA-1"
      }],
      "type" : [{
        "coding" : [{
          "system" : "http://nictiz.nl/fhir/NamingSystem/organization-type",
          "code" : "V4",
          "display" : "Ziekenhuis"
        }]
      }],
      "name" : "Zorg bij jou"
    },
    "request" : {
      "method" : "POST",
      "url" : "Organization"
    }
  },
  {
    "fullUrl" : "minimal-enrollment-Organization-Requester",
    "resource" : {
      "resourceType" : "Organization",
      "id" : "minimal-enrollment-Organization-Requester",
      "meta" : {
        "profile" : ["http://nictiz.nl/fhir/StructureDefinition/nl-core-HealthcareProvider-Organization"]
      },
      "text" : {
        "status" : "generated",
        "div" : "<div xmlns=\"http://www.w3.org/1999/xhtml\"><a name=\"Organization_minimal-enrollment-Organization-Requester\"> </a><p><b>Generated Narrative: Organization </b><a name=\"minimal-enrollment-Organization-Requester\"> </a><a name=\"hcminimal-enrollment-Organization-Requester\"> </a></p><div style=\"display: inline-block; background-color: #d9e0e7; padding: 6px; margin: 4px; border: 1px solid #8da1b4; border-radius: 5px; line-height: 60%\"><p style=\"margin-bottom: 0px\">ResourceOrganization &quot;minimal-enrollment-Organization-Requester&quot; </p><p style=\"margin-bottom: 0px\">Profile: <a href=\"https://simplifier.net/resolve?scope=nictiz.fhir.nl.r4.nl-core@0.10.0-beta.1&amp;canonical=http://nictiz.nl/fhir/StructureDefinition/nl-core-HealthcareProvider-Organization\">nl core HealthcareProvider Organization</a></p></div><p><b>identifier</b>: Ura/URA-ziekenhuis-1</p><p><b>name</b>: St. Antonius Ziekenhuis</p></div>"
      },
      "identifier" : [{
        "system" : "http://fhir.nl/fhir/NamingSystem/ura",
        "value" : "URA-ziekenhuis-1"
      }],
      "name" : "St. Antonius Ziekenhuis"
    },
    "request" : {
      "method" : "POST",
      "url" : "Organization"
    }
  },
  {
    "fullUrl" : "minimal-enrollment-Patient",
    "resource" : {
      "resourceType" : "Patient",
      "id" : "minimal-enrollment-Patient",
      "meta" : {
        "profile" : ["http://nictiz.nl/fhir/StructureDefinition/nl-core-Patient"]
      },
      "text" : {
        "status" : "generated",
        "div" : "<div xmlns=\"http://www.w3.org/1999/xhtml\"><a name=\"Patient_minimal-enrollment-Patient\"> </a><p><b>Generated Narrative: Patient </b><a name=\"minimal-enrollment-Patient\"> </a><a name=\"hcminimal-enrollment-Patient\"> </a></p><div style=\"display: inline-block; background-color: #d9e0e7; padding: 6px; margin: 4px; border: 1px solid #8da1b4; border-radius: 5px; line-height: 60%\"><p style=\"margin-bottom: 0px\">ResourcePatient &quot;minimal-enrollment-Patient&quot; </p><p style=\"margin-bottom: 0px\">Profile: <a href=\"https://simplifier.net/resolve?scope=nictiz.fhir.nl.r4.nl-core@0.10.0-beta.1&amp;canonical=http://nictiz.nl/fhir/StructureDefinition/nl-core-Patient\">nl core Patient</a></p></div><p><b>identifier</b>: <code>http://fhir.nl/fhir/NamingSystem/bsn</code>/111222333</p><p><b>name</b>: Jean Jacques van Putten-van der Giessen(Official)</p><p><b>birthDate</b>: 1974-01-01</p><h3>Contacts</h3><table class=\"grid\"><tr><td style=\"display: none\">-</td><td><b>Telecom</b></td></tr><tr><td style=\"display: none\">*</td><td><a href=\"tel:+31612345678\">+31612345678</a></td></tr></table></div>"
      },
      "identifier" : [{
        "system" : "http://fhir.nl/fhir/NamingSystem/bsn",
        "value" : "111222333"
      }],
      "name" : [{
        "use" : "official",
        "text" : "Jean Jacques van Putten-van der Giessen",
        "family" : "van Putten-van der Giessen",
        "_family" : {
          "extension" : [{
            "url" : "http://hl7.org/fhir/StructureDefinition/humanname-own-prefix",
            "valueString" : "van"
          },
          {
            "url" : "http://hl7.org/fhir/StructureDefinition/humanname-own-name",
            "valueString" : "Putten"
          },
          {
            "url" : "http://hl7.org/fhir/StructureDefinition/humanname-partner-prefix",
            "valueString" : "van der"
          },
          {
            "url" : "http://hl7.org/fhir/StructureDefinition/humanname-partner-name",
            "valueString" : "Giessen"
          }]
        },
        "given" : ["Jean",
        "Jacques"]
      }],
      "birthDate" : "1974-01-01",
      "contact" : [{
        "telecom" : [{
          "system" : "phone",
          "value" : "+31612345678"
        }]
      }]
    },
    "request" : {
      "method" : "POST",
      "url" : "Patient"
    }
  },
  {
    "fullUrl" : "minimal-enrollment-Practitioner-HP",
    "resource" : {
      "resourceType" : "Practitioner",
      "id" : "minimal-enrollment-Practitioner-HP",
      "meta" : {
        "profile" : ["http://nictiz.nl/fhir/StructureDefinition/nl-core-HealthProfessional-Practitioner"]
      },
      "text" : {
        "status" : "generated",
        "div" : "<div xmlns=\"http://www.w3.org/1999/xhtml\"><a name=\"Practitioner_minimal-enrollment-Practitioner-HP\"> </a><p><b>Generated Narrative: Practitioner </b><a name=\"minimal-enrollment-Practitioner-HP\"> </a><a name=\"hcminimal-enrollment-Practitioner-HP\"> </a></p><div style=\"display: inline-block; background-color: #d9e0e7; padding: 6px; margin: 4px; border: 1px solid #8da1b4; border-radius: 5px; line-height: 60%\"><p style=\"margin-bottom: 0px\">ResourcePractitioner &quot;minimal-enrollment-Practitioner-HP&quot; </p><p style=\"margin-bottom: 0px\">Profile: <a href=\"https://simplifier.net/resolve?scope=nictiz.fhir.nl.r4.nl-core@0.10.0-beta.1&amp;canonical=http://nictiz.nl/fhir/StructureDefinition/nl-core-HealthProfessional-Practitioner\">nl core HealthProfessional Practitioner</a></p></div><p><b>name</b>: H.B. Hoofdbehandelaar(Official)</p><p><b>telecom</b>: <a href=\"tel:+31688888888\">+31688888888</a>, <a href=\"mailto:hb@icloud.com\">hb@icloud.com</a></p></div>"
      },
      "name" : [{
        "use" : "official",
        "text" : "H.B. Hoofdbehandelaar",
        "family" : "Hoofdbehandelaar",
        "_family" : {
          "extension" : [{
            "url" : "http://hl7.org/fhir/StructureDefinition/humanname-own-name",
            "valueString" : "Hoofdbehandelaar"
          }]
        },
        "given" : ["Hendrik Bernard"],
        "_given" : [{
          "extension" : [{
            "url" : "http://hl7.org/fhir/StructureDefinition/iso21090-EN-qualifier",
            "valueCode" : "IN"
          }]
        }],
        "prefix" : ["Prof."]
      }],
      "telecom" : [{
        "system" : "phone",
        "value" : "+31688888888"
      },
      {
        "system" : "email",
        "value" : "hb@icloud.com"
      }]
    },
    "request" : {
      "method" : "POST",
      "url" : "Practitioner"
    }
  },
  {
    "fullUrl" : "minimal-enrollment-Practitioner-Requester",
    "resource" : {
      "resourceType" : "Practitioner",
      "id" : "minimal-enrollment-Practitioner-Requester",
      "meta" : {
        "profile" : ["http://nictiz.nl/fhir/StructureDefinition/nl-core-HealthProfessional-Practitioner"]
      },
      "text" : {
        "status" : "generated",
        "div" : "<div xmlns=\"http://www.w3.org/1999/xhtml\"><a name=\"Practitioner_minimal-enrollment-Practitioner-Requester\"> </a><p><b>Generated Narrative: Practitioner </b><a name=\"minimal-enrollment-Practitioner-Requester\"> </a><a name=\"hcminimal-enrollment-Practitioner-Requester\"> </a></p><div style=\"display: inline-block; background-color: #d9e0e7; padding: 6px; margin: 4px; border: 1px solid #8da1b4; border-radius: 5px; line-height: 60%\"><p style=\"margin-bottom: 0px\">ResourcePractitioner &quot;minimal-enrollment-Practitioner-Requester&quot; </p><p style=\"margin-bottom: 0px\">Profile: <a href=\"https://simplifier.net/resolve?scope=nictiz.fhir.nl.r4.nl-core@0.10.0-beta.1&amp;canonical=http://nictiz.nl/fhir/StructureDefinition/nl-core-HealthProfessional-Practitioner\">nl core HealthProfessional Practitioner</a></p></div><p><b>name</b>: A. Aanvrager(Official)</p><p><b>telecom</b>: <a href=\"tel:+31687654321\">+31687654321</a>, <a href=\"mailto:av@icloud.com\">av@icloud.com</a></p></div>"
      },
      "name" : [{
        "use" : "official",
        "text" : "A. Aanvrager",
        "family" : "Aanvrager",
        "_family" : {
          "extension" : [{
            "url" : "http://hl7.org/fhir/StructureDefinition/humanname-own-name",
            "valueString" : "Aanvrager"
          }]
        },
        "given" : ["Anton"],
        "_given" : [{
          "extension" : [{
            "url" : "http://hl7.org/fhir/StructureDefinition/iso21090-EN-qualifier",
            "valueCode" : "IN"
          }]
        }],
        "prefix" : ["Drs."]
      }],
      "telecom" : [{
        "system" : "phone",
        "value" : "+31687654321"
      },
      {
        "system" : "email",
        "value" : "av@icloud.com"
      }]
    },
    "request" : {
      "method" : "POST",
      "url" : "Practitioner"
    }
  },
  {
    "fullUrl" : "minimal-enrollment-ServiceRequest",
    "resource" : {
      "resourceType" : "ServiceRequest",
      "id" : "minimal-enrollment-ServiceRequest",
      "text" : {
        "status" : "generated",
        "div" : "<div xmlns=\"http://www.w3.org/1999/xhtml\"><a name=\"ServiceRequest_minimal-enrollment-ServiceRequest\"> </a><p><b>Generated Narrative: ServiceRequest </b><a name=\"minimal-enrollment-ServiceRequest\"> </a><a name=\"hcminimal-enrollment-ServiceRequest\"> </a></p><div style=\"display: inline-block; background-color: #d9e0e7; padding: 6px; margin: 4px; border: 1px solid #8da1b4; border-radius: 5px; line-height: 60%\"><p style=\"margin-bottom: 0px\">ResourceServiceRequest &quot;minimal-enrollment-ServiceRequest&quot; </p></div><p><b>status</b>: draft</p><p><b>intent</b>: order</p><p><b>code</b>: monitoren via telegeneeskunde (regime/therapie) <span style=\"background: LightGoldenRodYellow; margin: 4px; border: 1px solid khaki\"> (<a href=\"https://browser.ihtsdotools.org/\">SNOMED CT</a>#719858009)</span></p><p><b>orderDetail</b>: COPD Thuismonitoring pakket Light <span style=\"background: LightGoldenRodYellow; margin: 4px; border: 1px solid khaki\"> ()</span></p><p><b>subject</b>: See on this page: Patient/minimal-enrollment-Patient: Patient, Jean Jacques van Putten-van der Giessen</p><p><b>requester</b>: See on this page: Organization/minimal-enrollment-Organization-Requester: Requester Organization St. Antonius Ziekenhuis</p><p><b>performer</b>: See on this page: Organization/minimal-enrollment-Organization-Performer: Performer Organization Zorg bij jou</p><p><b>reasonReference</b>: See on this page: Condition/minimal-enrollment-Condition: Diagnose Hartfalen</p><p><b>patientInstruction</b>: # streefwaarden\n- 30 kg\n- 180 cm\n# aantekeningen\n- Grote hond\n-grote mond\n</p></div>"
      },
      "status" : "draft",
      "intent" : "order",
      "code" : {
        "coding" : [{
          "system" : "http://snomed.info/sct",
          "code" : "719858009",
          "display" : "monitoren via telegeneeskunde (regime/therapie)"
        }]
      },
      "orderDetail" : [{
        "text" : "COPD Thuismonitoring pakket Light"
      }],
      "subject" : {
        "reference" : "Patient/minimal-enrollment-Patient",
        "type" : "Patient",
        "display" : "Patient, Jean Jacques van Putten-van der Giessen"
      },
      "requester" : {
        "reference" : "Organization/minimal-enrollment-Organization-Requester",
        "type" : "Organization",
        "display" : "Requester Organization St. Antonius Ziekenhuis"
      },
      "performer" : [{
        "reference" : "Organization/minimal-enrollment-Organization-Performer",
        "type" : "Organization",
        "display" : "Performer Organization Zorg bij jou"
      }],
      "reasonReference" : [{
        "reference" : "Condition/minimal-enrollment-Condition",
        "display" : "Diagnose Hartfalen"
      }],
      "patientInstruction" : "# streefwaarden\n- 30 kg\n- 180 cm\n# aantekeningen\n- Grote hond\n-grote mond\n"
    },
    "request" : {
      "method" : "POST",
      "url" : "ServiceRequest"
    }
  },
  {
    "fullUrl" : "minimal-enrollment-Task",
    "resource" : {
      "resourceType" : "Task",
      "id" : "minimal-enrollment-Task",
      "text" : {
        "status" : "generated",
        "div" : "<div xmlns=\"http://www.w3.org/1999/xhtml\"><a name=\"Task_minimal-enrollment-Task\"> </a><p><b>Generated Narrative: Task </b><a name=\"minimal-enrollment-Task\"> </a><a name=\"hcminimal-enrollment-Task\"> </a></p><div style=\"display: inline-block; background-color: #d9e0e7; padding: 6px; margin: 4px; border: 1px solid #8da1b4; border-radius: 5px; line-height: 60%\"><p style=\"margin-bottom: 0px\">ResourceTask &quot;minimal-enrollment-Task&quot; </p></div><p><b>basedOn</b>: See on this page: CarePlan/minimal-enrollment-CarePlan</p><p><b>status</b>: requested</p><p><b>intent</b>: order</p><p><b>focus</b>: See on this page: ServiceRequest/minimal-enrollment-ServiceRequest</p></div>"
      },
      "basedOn" : [{
        "reference" : "CarePlan/minimal-enrollment-CarePlan"
      }],
      "status" : "requested",
      "intent" : "order",
      "focus" : {
        "reference" : "ServiceRequest/minimal-enrollment-ServiceRequest"
      }
    },
    "request" : {
      "method" : "POST",
      "url" : "Task"
    }
  }]
}