{
  "resourceType" : "Bundle",
  "id" : "minimal-enrollment-Bundle",
  "type" : "transaction",
  "entry" : [{
    "fullUrl" : "minimal-enrollment-CarePlan",
    "resource" : {
      "resourceType" : "CarePlan",
      "id" : "minimal-enrollment-CarePlan",
      "text" : {
        "status" : "generated",
        "div" : "<div xmlns=\"http://www.w3.org/1999/xhtml\"><a name=\"CarePlan_minimal-enrollment-CarePlan\"> </a><p class=\"res-header-id\"><b>Generated Narrative: CarePlan minimal-enrollment-CarePlan</b></p><a name=\"minimal-enrollment-CarePlan\"> </a><a name=\"hcminimal-enrollment-CarePlan\"> </a><a name=\"hcminimal-enrollment-CarePlan-en-US\"> </a><p><b>status</b>: Draft</p><p><b>intent</b>: Plan</p><p><b>title</b>: CarePlan for Minimal Enrollment</p><p><b>subject</b>: Identifier: <code>http://fhir.nl/fhir/NamingSystem/bsn</code>/111222333</p><p><b>addresses</b>: <a href=\"Condition-minimal-enrollment-Condition.html\">Condition Hartfalen</a></p></div>"
      },
      "status" : "draft",
      "intent" : "plan",
      "title" : "CarePlan for Minimal Enrollment",
      "subject" : {
        "identifier" : {
          "system" : "http://fhir.nl/fhir/NamingSystem/bsn",
          "value" : "111222333"
        }
      },
      "addresses" : [{
        "reference" : "Condition/minimal-enrollment-Condition",
        "identifier" : {
          "system" : "http://snomed.info/sct",
          "value" : "195111005"
        }
      }]
    },
    "request" : {
      "method" : "POST",
      "url" : "CarePlan"
    }
  },
  {
    "fullUrl" : "minimal-enrollment-Condition",
    "resource" : {
      "resourceType" : "Condition",
      "id" : "minimal-enrollment-Condition",
      "meta" : {
        "profile" : ["http://nictiz.nl/fhir/StructureDefinition/nl-core-Problem"]
      },
      "text" : {
        "status" : "generated",
        "div" : "<div xmlns=\"http://www.w3.org/1999/xhtml\"><a name=\"Condition_minimal-enrollment-Condition\"> </a><p class=\"res-header-id\"><b>Generated Narrative: Condition minimal-enrollment-Condition</b></p><a name=\"minimal-enrollment-Condition\"> </a><a name=\"hcminimal-enrollment-Condition\"> </a><a name=\"hcminimal-enrollment-Condition-en-US\"> </a><p><b>category</b>: <span title=\"Codes:{http://snomed.info/sct 282291009}\">Interpretatie van diagnose</span></p><p><b>code</b>: <span title=\"Codes:{http://snomed.info/sct 195111005}\">Hartfalen</span></p><p><b>subject</b>: <a href=\"Patient-minimal-enrollment-Patient.html\">Patient, Jean Jacques van Putten-van der Giessen</a></p><p><b>note</b>: Hier een zinnige tekst over de diagnose Hartfalen</p></div>"
      },
      "category" : [{
        "coding" : [{
          "system" : "http://snomed.info/sct",
          "code" : "282291009",
          "display" : "Interpretatie van diagnose"
        }]
      }],
      "code" : {
        "coding" : [{
          "system" : "http://snomed.info/sct",
          "code" : "195111005",
          "display" : "Hartfalen"
        }]
      },
      "subject" : {
        "reference" : "Patient/minimal-enrollment-Patient",
        "type" : "Patient",
        "display" : "Patient, Jean Jacques van Putten-van der Giessen"
      },
      "note" : [{
        "text" : "Hier een zinnige tekst over de diagnose Hartfalen"
      }]
    },
    "request" : {
      "method" : "POST",
      "url" : "Condition"
    }
  },
  {
    "fullUrl" : "minimal-enrollment-Organization-Performer",
    "resource" : {
      "resourceType" : "Organization",
      "id" : "minimal-enrollment-Organization-Performer",
      "meta" : {
        "profile" : ["http://nictiz.nl/fhir/StructureDefinition/nl-core-HealthcareProvider-Organization"]
      },
      "text" : {
        "status" : "generated",
        "div" : "<div xmlns=\"http://www.w3.org/1999/xhtml\"><a name=\"Organization_minimal-enrollment-Organization-Performer\"> </a><p class=\"res-header-id\"><b>Generated Narrative: Organization minimal-enrollment-Organization-Performer</b></p><a name=\"minimal-enrollment-Organization-Performer\"> </a><a name=\"hcminimal-enrollment-Organization-Performer\"> </a><a name=\"hcminimal-enrollment-Organization-Performer-en-US\"> </a><p><b>identifier</b>: Ura/URA-1</p><p><b>type</b>: <span title=\"Codes:{http://nictiz.nl/fhir/NamingSystem/organization-type V4}\">Ziekenhuis</span></p><p><b>name</b>: Zorg bij jou</p></div>"
      },
      "identifier" : [{
        "system" : "http://fhir.nl/fhir/NamingSystem/ura",
        "value" : "URA-1"
      }],
      "type" : [{
        "coding" : [{
          "system" : "http://nictiz.nl/fhir/NamingSystem/organization-type",
          "code" : "V4",
          "display" : "Ziekenhuis"
        }]
      }],
      "name" : "Zorg bij jou"
    },
    "request" : {
      "method" : "POST",
      "url" : "Organization"
    }
  },
  {
    "fullUrl" : "minimal-enrollment-Organization-Requester",
    "resource" : {
      "resourceType" : "Organization",
      "id" : "minimal-enrollment-Organization-Requester",
      "meta" : {
        "profile" : ["http://nictiz.nl/fhir/StructureDefinition/nl-core-HealthcareProvider-Organization"]
      },
      "text" : {
        "status" : "generated",
        "div" : "<div xmlns=\"http://www.w3.org/1999/xhtml\"><a name=\"Organization_minimal-enrollment-Organization-Requester\"> </a><p class=\"res-header-id\"><b>Generated Narrative: Organization minimal-enrollment-Organization-Requester</b></p><a name=\"minimal-enrollment-Organization-Requester\"> </a><a name=\"hcminimal-enrollment-Organization-Requester\"> </a><a name=\"hcminimal-enrollment-Organization-Requester-en-US\"> </a><p><b>identifier</b>: Ura/URA-ziekenhuis-1</p><p><b>name</b>: St. Antonius Ziekenhuis</p></div>"
      },
      "identifier" : [{
        "system" : "http://fhir.nl/fhir/NamingSystem/ura",
        "value" : "URA-ziekenhuis-1"
      }],
      "name" : "St. Antonius Ziekenhuis"
    },
    "request" : {
      "method" : "POST",
      "url" : "Organization"
    }
  },
  {
    "fullUrl" : "minimal-enrollment-Patient",
    "resource" : {
      "resourceType" : "Patient",
      "id" : "minimal-enrollment-Patient",
      "meta" : {
        "profile" : ["http://nictiz.nl/fhir/StructureDefinition/nl-core-Patient"]
      },
      "text" : {
        "status" : "generated",
        "div" : "<div xmlns=\"http://www.w3.org/1999/xhtml\"><a name=\"Patient_minimal-enrollment-Patient\"> </a><p class=\"res-header-id\"><b>Generated Narrative: Patient minimal-enrollment-Patient</b></p><a name=\"minimal-enrollment-Patient\"> </a><a name=\"hcminimal-enrollment-Patient\"> </a><a name=\"hcminimal-enrollment-Patient-en-US\"> </a><p style=\"border: 1px #661aff solid; background-color: #e6e6ff; padding: 10px;\">Jean Jacques van Putten-van der Giessen(official) (no stated gender), DoB: 1974-01-01 ( http://fhir.nl/fhir/NamingSystem/bsn#111222333)</p><hr/><table class=\"grid\"><tr><td style=\"background-color: #f3f5da\" title=\"Patient contact\">Contact:</td><td colspan=\"3\"><ul><li><a href=\"tel:+31612345678\">+31612345678</a></li></ul></td></tr></table></div>"
      },
      "identifier" : [{
        "system" : "http://fhir.nl/fhir/NamingSystem/bsn",
        "value" : "111222333"
      }],
      "name" : [{
        "use" : "official",
        "text" : "Jean Jacques van Putten-van der Giessen",
        "family" : "van Putten-van der Giessen",
        "_family" : {
          "extension" : [{
            "url" : "http://hl7.org/fhir/StructureDefinition/humanname-own-prefix",
            "valueString" : "van"
          },
          {
            "url" : "http://hl7.org/fhir/StructureDefinition/humanname-own-name",
            "valueString" : "Putten"
          },
          {
            "url" : "http://hl7.org/fhir/StructureDefinition/humanname-partner-prefix",
            "valueString" : "van der"
          },
          {
            "url" : "http://hl7.org/fhir/StructureDefinition/humanname-partner-name",
            "valueString" : "Giessen"
          }]
        },
        "given" : ["Jean",
        "Jacques"]
      }],
      "birthDate" : "1974-01-01",
      "contact" : [{
        "telecom" : [{
          "system" : "phone",
          "value" : "+31612345678"
        }]
      }]
    },
    "request" : {
      "method" : "POST",
      "url" : "Patient"
    }
  },
  {
    "fullUrl" : "minimal-enrollment-Practitioner-HP",
    "resource" : {
      "resourceType" : "Practitioner",
      "id" : "minimal-enrollment-Practitioner-HP",
      "meta" : {
        "profile" : ["http://nictiz.nl/fhir/StructureDefinition/nl-core-HealthProfessional-Practitioner"]
      },
      "text" : {
        "status" : "generated",
        "div" : "<div xmlns=\"http://www.w3.org/1999/xhtml\"><a name=\"Practitioner_minimal-enrollment-Practitioner-HP\"> </a><p class=\"res-header-id\"><b>Generated Narrative: Practitioner minimal-enrollment-Practitioner-HP</b></p><a name=\"minimal-enrollment-Practitioner-HP\"> </a><a name=\"hcminimal-enrollment-Practitioner-HP\"> </a><a name=\"hcminimal-enrollment-Practitioner-HP-en-US\"> </a><p><b>name</b>: H.B. Hoofdbehandelaar(Official)</p><p><b>telecom</b>: <a href=\"tel:+31688888888\">+31688888888</a>, <a href=\"mailto:hb@icloud.com\">hb@icloud.com</a></p></div>"
      },
      "name" : [{
        "use" : "official",
        "text" : "H.B. Hoofdbehandelaar",
        "family" : "Hoofdbehandelaar",
        "_family" : {
          "extension" : [{
            "url" : "http://hl7.org/fhir/StructureDefinition/humanname-own-name",
            "valueString" : "Hoofdbehandelaar"
          }]
        },
        "given" : ["Hendrik Bernard"],
        "_given" : [{
          "extension" : [{
            "url" : "http://hl7.org/fhir/StructureDefinition/iso21090-EN-qualifier",
            "valueCode" : "IN"
          }]
        }],
        "prefix" : ["Prof."]
      }],
      "telecom" : [{
        "system" : "phone",
        "value" : "+31688888888"
      },
      {
        "system" : "email",
        "value" : "hb@icloud.com"
      }]
    },
    "request" : {
      "method" : "POST",
      "url" : "Practitioner"
    }
  },
  {
    "fullUrl" : "minimal-enrollment-Practitioner-Requester",
    "resource" : {
      "resourceType" : "Practitioner",
      "id" : "minimal-enrollment-Practitioner-Requester",
      "meta" : {
        "profile" : ["http://nictiz.nl/fhir/StructureDefinition/nl-core-HealthProfessional-Practitioner"]
      },
      "text" : {
        "status" : "generated",
        "div" : "<div xmlns=\"http://www.w3.org/1999/xhtml\"><a name=\"Practitioner_minimal-enrollment-Practitioner-Requester\"> </a><p class=\"res-header-id\"><b>Generated Narrative: Practitioner minimal-enrollment-Practitioner-Requester</b></p><a name=\"minimal-enrollment-Practitioner-Requester\"> </a><a name=\"hcminimal-enrollment-Practitioner-Requester\"> </a><a name=\"hcminimal-enrollment-Practitioner-Requester-en-US\"> </a><p><b>name</b>: A. Aanvrager(Official)</p><p><b>telecom</b>: <a href=\"tel:+31687654321\">+31687654321</a>, <a href=\"mailto:av@icloud.com\">av@icloud.com</a></p></div>"
      },
      "name" : [{
        "use" : "official",
        "text" : "A. Aanvrager",
        "family" : "Aanvrager",
        "_family" : {
          "extension" : [{
            "url" : "http://hl7.org/fhir/StructureDefinition/humanname-own-name",
            "valueString" : "Aanvrager"
          }]
        },
        "given" : ["Anton"],
        "_given" : [{
          "extension" : [{
            "url" : "http://hl7.org/fhir/StructureDefinition/iso21090-EN-qualifier",
            "valueCode" : "IN"
          }]
        }],
        "prefix" : ["Drs."]
      }],
      "telecom" : [{
        "system" : "phone",
        "value" : "+31687654321"
      },
      {
        "system" : "email",
        "value" : "av@icloud.com"
      }]
    },
    "request" : {
      "method" : "POST",
      "url" : "Practitioner"
    }
  },
  {
    "fullUrl" : "minimal-enrollment-ServiceRequest",
    "resource" : {
      "resourceType" : "ServiceRequest",
      "id" : "minimal-enrollment-ServiceRequest",
      "text" : {
        "status" : "generated",
        "div" : "<div xmlns=\"http://www.w3.org/1999/xhtml\"><a name=\"ServiceRequest_minimal-enrollment-ServiceRequest\"> </a><p class=\"res-header-id\"><b>Generated Narrative: ServiceRequest minimal-enrollment-ServiceRequest</b></p><a name=\"minimal-enrollment-ServiceRequest\"> </a><a name=\"hcminimal-enrollment-ServiceRequest\"> </a><a name=\"hcminimal-enrollment-ServiceRequest-en-US\"> </a><p><b>status</b>: Draft</p><p><b>intent</b>: Order</p><p><b>code</b>: <span title=\"Codes:{http://snomed.info/sct 719858009}\">monitoren via telegeneeskunde (regime/therapie)</span></p><p><b>subject</b>: <a href=\"Patient-minimal-enrollment-Patient.html\">Patient, Jean Jacques van Putten-van der Giessen</a></p><p><b>requester</b>: <a href=\"Organization-minimal-enrollment-Organization-Requester.html\">Requester Organization St. Antonius Ziekenhuis</a></p><p><b>performer</b>: <a href=\"Organization-minimal-enrollment-Organization-Performer.html\">Performer Organization Zorg bij jou</a></p><p><b>reasonReference</b>: <a href=\"Condition-minimal-enrollment-Condition.html\">Diagnose Hartfalen</a></p></div>"
      },
      "status" : "draft",
      "intent" : "order",
      "code" : {
        "coding" : [{
          "system" : "http://snomed.info/sct",
          "code" : "719858009",
          "display" : "monitoren via telegeneeskunde (regime/therapie)"
        }]
      },
      "subject" : {
        "reference" : "Patient/minimal-enrollment-Patient",
        "type" : "Patient",
        "display" : "Patient, Jean Jacques van Putten-van der Giessen"
      },
      "requester" : {
        "reference" : "Organization/minimal-enrollment-Organization-Requester",
        "type" : "Organization",
        "display" : "Requester Organization St. Antonius Ziekenhuis"
      },
      "performer" : [{
        "reference" : "Organization/minimal-enrollment-Organization-Performer",
        "type" : "Organization",
        "display" : "Performer Organization Zorg bij jou"
      }],
      "reasonReference" : [{
        "reference" : "Condition/minimal-enrollment-Condition",
        "display" : "Diagnose Hartfalen"
      }]
    },
    "request" : {
      "method" : "POST",
      "url" : "ServiceRequest"
    }
  },
  {
    "fullUrl" : "minimal-enrollment-Task",
    "resource" : {
      "resourceType" : "Task",
      "id" : "minimal-enrollment-Task",
      "text" : {
        "status" : "generated",
        "div" : "<div xmlns=\"http://www.w3.org/1999/xhtml\"><a name=\"Task_minimal-enrollment-Task\"> </a><p class=\"res-header-id\"><b>Generated Narrative: Task minimal-enrollment-Task</b></p><a name=\"minimal-enrollment-Task\"> </a><a name=\"hcminimal-enrollment-Task\"> </a><a name=\"hcminimal-enrollment-Task-en-US\"> </a><p><b>basedOn</b>: <a href=\"CarePlan-minimal-enrollment-CarePlan.html\">CarePlan CarePlan for Minimal Enrollment</a></p><p><b>status</b>: Requested</p><p><b>intent</b>: order</p><p><b>focus</b>: <a href=\"ServiceRequest-minimal-enrollment-ServiceRequest.html\">ServiceRequest monitoren via telegeneeskunde (regime/therapie)</a></p></div>"
      },
      "basedOn" : [{
        "reference" : "CarePlan/minimal-enrollment-CarePlan"
      }],
      "status" : "requested",
      "intent" : "order",
      "focus" : {
        "reference" : "ServiceRequest/minimal-enrollment-ServiceRequest"
      }
    },
    "request" : {
      "method" : "POST",
      "url" : "Task"
    }
  }]
}